{
  "resourceType": "Immunization",
  "contained": [
    {
      "resourceType": "Practitioner",
      "id": "Pract1",
      "name": [{ "family": "iucds", "given": ["Russell"] }]
    },
    {
      "resourceType": "Patient",
      "id": "Pat1",
      "identifier": [
        { "system": "https://fhir.nhs.uk/Id/nhs-number", "value": "9726629101" }
      ],
      "name": [{ "family": "VAREY", "given": ["DIANA"] }],
      "gender": "unknown",
      "birthDate": "2021-10-24",
      "address": [{ "postalCode": "DN15 8EZ" }]
    }
  ],
  "extension": [
    {
      "url": "https://fhir.hl7.org.uk/StructureDefinition/Extension-UKCore-VaccinationProcedure",
      "valueCodeableConcept": {
        "coding": [
          {
            "system": "http://snomed.info/sct",
            "code": "1303503001",
            "display": "Administration of vaccine product containing only Human orthopneumovirus antigen (procedure)"
          }
        ]
      }
    }
  ],
  "identifier": [
    {
      "system": "https://www.ieds.england.nhs.uk/",
      "value": "a7e06f66-339f-4b81-b2f6-016b88bfc422"
    }
  ],
  "status": "completed",
  "vaccineCode": {
    "coding": [
      {
        "system": "http://snomed.info/sct",
        "code": "42605811000001100",
        "display": "Abrysvo vaccine powder and solvent for solution for injection 0.5ml vials (Pfizer Ltd) (product)"
      }
    ]
  },
  "patient": { "reference": "#Pat1" },
  "occurrenceDateTime": "2025-05-27T14:53:26.271+00:00",
  "recorded": "2025-07-10T11:25:56.000+00:00",
  "primarySource": true,
  "manufacturer": { "display": "Pfizer" },
  "location": {
    "identifier": {
      "value": "X8E5B",
      "system": "https://fhir.nhs.uk/Id/ods-organization-code"
    }
  },
  "lotNumber": "RSVAPITEST",
  "expirationDate": "2025-06-01",
  "site": {
    "coding": [
      {
        "system": "http://snomed.info/sct",
        "code": "368208006",
        "display": "Left upper arm structure (body structure)"
      }
    ]
  },
  "route": {
    "coding": [
      {
        "system": "http://snomed.info/sct",
        "code": "78421000",
        "display": "Intramuscular route (qualifier value)"
      }
    ]
  },
  "doseQuantity": {
    "value": 0.5,
    "unit": "milliliter",
    "system": "http://unitsofmeasure.org",
    "code": "ml"
  },
  "performer": [
    { "actor": { "reference": "#Pract1" } },
    {
      "actor": {
        "type": "Organization",
        "display": "UNIVERSITY HOSPITAL OF WALES",
        "identifier": {
          "system": "https://fhir.nhs.uk/Id/ods-organization-code",
          "value": "B0C4P"
        }
      }
    }
  ],
  "reasonCode": [
    {
      "coding": [
        {
          "code": "443684005",
          "display": "Disease outbreak (event)",
          "system": "http://snomed.info/sct"
        }
      ]
    }
  ],
  "protocolApplied": [
    {
      "targetDisease": [
        {
          "coding": [
            {
              "system": "http://snomed.info/sct",
              "code": "55735004",
              "display": "Disease caused by severe acute respiratory syndrome coronavirus 2 (disorder)"
            }
          ]
        }
      ],
      "doseNumberPositiveInt": 11
    }
  ],
  "id": "088414ed-7d3d-40a5-9968-b3d2b9a266b2"
}
