
{
  "resourceType": "Immunization",
  "contained": [
    {
      "resourceType": "Practitioner",
      "id": "Pract1",
      "name": [
        {
          "family": "Nightingale",
          "given": ["Florence"]
        }
      ]
    },
    {
      "resourceType": "Patient",
      "id": "Pat1",
      "identifier": [
        {
          "system": "https://fhir.nhs.uk/Id/nhs-number",
          "value": "9990548609"
        }
      ],
      "name": [
        {
          "family": "Taylor",
          "given": ["Sarah"]
        }
      ],
      "gender": "other",
      "birthDate": "2026-03-10",
      "address": [
        {
          "use": "home",
          "line": ["123 High Street"],
          "city": "London",
          "postalCode": "SW1A 1AA"
        }
      ]
    }
  ],
  "extension": [
    {
      "url": "https://fhir.hl7.org.uk/StructureDefinition/Extension-UKCore-VaccinationProcedure",
      "valueCodeableConcept": {
          "coding": [
              {
                  "code": "956951000000105",
                  "display": "Item 1",
                  "system": "http://snomed.info/test"
              },
              {
                  "code": "956951000000104",
                  "display": "Item 2",
                  "system": "http://snomed.info/sct",
                  "extension": [
                    {
                        "url": "https://fhir.hl7.org.uk/StructureDefinition/Extension-UKCore-CodingSCTDescDisplay",
                        "valueString": "Administration of first dose of SARS-CoV-2 (severe acute respiratory syndrome coronavirus 2) vaccine"
                    }
                  ]
              }
          ],
          "text": "condition 1"
        }
      }
  ],
  "identifier": [
    {
      "system": "https://supplierABC/identifiers/vacc",
      "value": "ACME-vacc123456"
    }
  ],
  "status": "completed",
  "vaccineCode": {
    "coding": [
      {
        "system": "http://snomed.info/sct",
        "code": "39114911000001104",
        "display": "COVID-19 Vaccine Vaxzevria (ChAdOx1 S [recombinant]) not less than 2.5x100,000,000 infectious units/0.5ml dose suspension for injection multidose vials (AstraZeneca UK Ltd) (product)"
      },
      {
        "system": "http://snomed.info/sct",
        "code": "39114911000001105",
        "display": "COVID-19 Vaccine Vaxzevria (ChAdOx1 S [recombinant]) not less than 2.5x100,000,000 infectious units/0.5ml dose suspension for injection multidose vials (AstraZeneca UK Ltd) (product)"
      }
    ]
  },
  "patient": {
    "reference": "#Pat1"
  },
  "occurrenceDateTime": "2021-05-07T12:24:37+00:00",
  "recorded": "2025-01-01T00:00:00.000000",
  "primarySource": "True",
  "manufacturer": {
    "display": "AstraZeneca Ltd"
  },
  "location": {
    "type": "Location",
    "identifier": {
      "value": "X99999",
      "system": "https://fhir.nhs.uk/Id/ods-organization-code"
    }
  },
  "lotNumber": "4120Z001",
  "expirationDate": "2024-10-05",

  "site": {
    "coding": [
      {
        "system": "http://snomed.info/sct",
        "code": "368208006",
        "display": "Left upper arm structure (body structure)"
      }
    ]
  },
  "route": {
    "coding": [
      {
        "system": "http://snomed.info/sct",
        "code": "78421000",
        "display": "Intramuscular route (qualifier value)"
      }
    ]
  },
  "doseQuantity": {
    "value": 0.5,
    "unit": "milliliter",
    "system": "http://unitsofmeasure.org",
    "code": "ml"
  },
  "performer": [
    {
      "actor": {
        "reference": "#Pract1"
      }
    },
    {
      "actor": {
        "type": "Organization",
        "identifier": {
          "system": "https://fhir.hl7.org.uk/Id/urn-school-number",
          "value": "B0C4P"
        }
      }
    }
  ],
  "reasonCode": [
    {
      "coding": [
        {
          "code": "443684005",
          "system": "http://snomed.info/sct"
        }
      ]
    }
  ],
  "protocolApplied": [
    {
      "targetDisease": [
        {
          "coding": [
            {
              "system": "http://snomed.info/sct",
              "code": "840539006",
              "display": "Disease caused by severe acute respiratory syndrome coronavirus 2"
            }
          ]
        }
      ],
      "doseNumberPositiveInt": 2
    }
  ]
}