
{
  "resourceType": "Immunization",
  "contained": [
    {
      "resourceType": "Practitioner",
      "id": "Pract1",
      "name": [
    {
      "family": "Furlong old 1",
      "given": [
        "Darren 2", "old use value"
      ],
      "period": {
        "start": "2000-01-01",
        "end": "2030-01-01"
      }
    },
    {
      "family": "Furlong old",
      "given": [
        "Darren", "old use value"
      ],
      "use": "old",
      "period": {
        "start": "2000-01-01",
        "end": "2030-01-01"
      }
    },
    {
      "family": "Furlong official",
      "given": [
        "Darren", "Official"
      ],
      "use": "official",
      "period": {
        "start": "2000-01-01",
        "end": "2030-01-01"
      }
    }
     ]
    },
    {
      "resourceType": "Patient",
      "id": "Pat1",
      "identifier": [
        {
          "system": "https://fhir.nhs.uk/Id/nhs-number",
          "value": "9990548609"
        }
      ],
      "name": [
            {
                "use": "home",
                "text": "hello pat1",
                "family": "test10 ",
                "given": [
                 "test11", "test12", "test13"
                ],
                "period":   {
                    "start" : "2000-01-01",
                    "end" : "2026-01-01"
                    }                
            },
            {
                "use": "old",
                "text": "hello pat3",
                "family": "test14",
                "given": [
                    "test15", "test16", "test17"
                ],
                "period":   {
                    "start" : "2000-01-01",
                    "end" : "2026-01-01"
                    }                
            }                        
        ],
      "gender": "other",
      "birthDate": "2026-03-10",
      "address": [
    {
      "use": "work",
      "type": "both",
      "text": "Validate Obf",
      "line": [
        "1, work_2"
      ],
      "city": "work_3",
      "district": "work_4",
      "state": "work_5",
      "country": "work_7",
      "postalCode": "LS8 4ED",
      "period": {
        "start": "2000-01-01",
        "end": "2030-01-01"
      }
    },
    {
      "use": "Home",
      "type": "Physical",
      "text": "Validate Obf",
      "line": [
        "1, obf_2"
      ],
      "city": "obf_3",
      "district": "obf_4",
      "state": "obf_5",
      "postalCode": "WF8 4ED",
      "country": "obf_7",
      "period": {
        "start": "2000-01-01",
        "end": "2030-01-01"
      }
    }
  ]
    }
  ],
  "extension": [
    {
      "url": "https://fhir.hl7.org.uk/StructureDefinition/Extension-UKCore-VaccinationProcedure",
      "valueCodeableConcept": {
          "coding": [
              {
                  "code": "956951000000105",
                  "display": "Seasonal influenza vaccination (procedure)",
                  "system": "http://snomed.info/test"
              },
              {
                  "code": "956951000000104",
                  "display": "Seasonal influenza vaccination (procedure)",
                  "system": "http://snomed.info/sct"
              },
              {
                  "code": "NEG",
                  "display": "Seasonal influenza vaccination (procedure)",
                  "system": "https://acme.lab/resultcodes"
              }
          ]
        }
      }
  ],
  "identifier": [
    {
      "system": "https://supplierABC/identifiers/vacc",
      "value": "ACME-vacc123456"
    }
  ],
  "status": "completed",
  "vaccineCode": {
    "coding": [
      {
        "system": "http://snomed.info/sct",
        "code": "39114911000001104",
        "display": "COVID-19 Vaccine Vaxzevria (ChAdOx1 S [recombinant]) not less than 2.5x100,000,000 infectious units/0.5ml dose suspension for injection multidose vials (AstraZeneca UK Ltd) (product)"
      },
      {
        "system": "http://snomed.info/sct",
        "code": "39114911000001105",
        "display": "COVID-19 Vaccine Vaxzevria (ChAdOx1 S [recombinant]) not less than 2.5x100,000,000 infectious units/0.5ml dose suspension for injection multidose vials (AstraZeneca UK Ltd) (product)"
      }
    ]
  },
  "patient": {
    "reference": "#Pat1"
  },
  "occurrenceDateTime": "2025-03-06T13:28:17.2+01:00",
  "recorded": "2025-01-01T00:00:00.000000",
  "primarySource": "True",
  "manufacturer": {
    "display": "AstraZeneca Ltd"
  },
  "location": {
    "type": "Location",
    "identifier": {
      "value": "X99999",
      "system": "https://fhir.nhs.uk/Id/ods-organization-code"
    }
  },
  "lotNumber": "4120Z001",
  "expirationDate": "2025-07-02",

  "site": {
    "coding": [
      {
        "system": "http://snomed.info/sct",
        "code": "368208006",
        "display": "Left upper arm structure (body structure)"
      }
    ]
  },
  "route": {
    "coding": [
      {
        "system": "http://snomed.info/sct",
        "code": "78421000",
        "display": "Intramuscular route (qualifier value)"
      }
    ]
  },
  "doseQuantity": {
    "value": 0.5,
    "unit": "milliliter",
    "system": "http://unitsofmeasure.org",
    "code": "ml"
  },
  "performer": [
    {
      "actor": {
        "reference": "#Pract1"
      }
    },
    {
      "actor": {
        "type": "Organization",
        "identifier": {
          "system": "https://fhir.hl7.org.uk/Id/urn-school-number",
          "value": "B0C4P"
        }
      }
    }
  ],
  "reasonCode": [
    {
      "coding": [
        {
          "code": "443684005",
          "system": "http://snomed.info/sct"
        }
      ]
    }
  ],
  "protocolApplied": [
    {
      "targetDisease": [
        {
          "coding": [
            {
              "system": "http://snomed.info/sct",
              "code": "840539006",
              "display": "Disease caused by severe acute respiratory syndrome coronavirus 2"
            }
          ]
        }
      ],
      "doseNumberPositiveInt": 2
    }
  ]
}