{
  "resourceType": "Bundle",
  "type": "searchset",
  "link": [
    {
      "relation": "self",
      "url": "https://internal-dev.api.service.nhs.uk/immunisation-fhir-api-pr-179/Immunization?-date.from=2021-02-06&-date.to=2021-02-08&-immunization.target=COVID19&_include=Immunization%3Apatient&patient.identifier=https%3A%2F%2Ffhir.nhs.uk%2FId%2Fnhs-number%7C9693632109"
    }
  ],
  "entry": [
    {
      "fullUrl": "urn:uuid:fde6551d-9124-4565-9a6d-a6c7ed64d55c",
      "resource": {
        "resourceType": "Immunization",
        "id": "fde6551d-9124-4565-9a6d-a6c7ed64d55c",
        "contained": [
          {
            "resourceType": "Practitioner",
            "id": "Pract1",
            "identifier": [
              {
                "system": "https://fhir.hl7.org.uk/Id/nmc-number",
                "value": "99A9999A"
              }
            ],
            "name": [
              {
                "family": "Nightingale",
                "given": ["Florence"]
              }
            ]
          },
          {
            "resourceType": "Patient",
            "id": "Pat1",
            "identifier": [
              {
                "extension": [
                  {
                    "url": "https://fhir.hl7.org.uk/StructureDefinition/Extension-UKCore-NHSNumberVerificationStatus",
                    "valueCodeableConcept": {
                      "coding": [
                        {
                          "system": "https://fhir.hl7.org.uk/CodeSystem/UKCore-NHSNumberVerificationStatusEngland",
                          "code": "01",
                          "display": "Number present and verified"
                        }
                      ]
                    }
                  }
                ],
                "system": "https://fhir.nhs.uk/Id/nhs-number",
                "value": "9693632109"
              }
            ],
            "name": [
              {
                "family": "Taylor",
                "given": ["Sarah"]
              }
            ],
            "gender": "unknown",
            "birthDate": "1965-02-28",
            "address": [
              {
                "postalCode": "EC1A 1BB"
              }
            ]
          },
          {
            "resourceType": "QuestionnaireResponse",
            "id": "QR1",
            "status": "completed",
            "item": [
              {
                "linkId": "Immunisation",
                "answer": [
                  {
                    "valueReference": {
                      "reference": "#"
                    }
                  }
                ]
              },
              {
                "linkId": "Consent",
                "answer": [
                  {
                    "valueCoding": {
                      "system": "http://snomed.info/sct",
                      "code": "310375005",
                      "display": "Immunization consent given (finding)"
                    }
                  }
                ]
              },
              {
                "linkId": "CareSetting",
                "answer": [
                  {
                    "valueCoding": {
                      "system": "http://snomed.info/sct",
                      "code": "413294000",
                      "display": "Community health services (qualifier value)"
                    }
                  }
                ]
              },
              {
                "linkId": "ReduceValidation",
                "answer": [
                  {
                    "valueBoolean": "false"
                  }
                ]
              },
              {
                "linkId": "LocalPatient",
                "answer": [
                  {
                    "valueReference": {
                      "identifier": {
                        "system": "https://ACME/identifiers/patient",
                        "value": "ACME-patient123456"
                      }
                    }
                  }
                ]
              },
              {
                "linkId": "IpAddress",
                "answer": [
                  {
                    "valueString": "IP_ADDRESS"
                  }
                ]
              },
              {
                "linkId": "UserId",
                "answer": [
                  {
                    "valueString": "USER_ID"
                  }
                ]
              },
              {
                "linkId": "UserName",
                "answer": [
                  {
                    "valueString": "USER_NAME"
                  }
                ]
              },
              {
                "linkId": "SubmittedTimeStamp",
                "answer": [
                  {
                    "valueDateTime": "2021-02-07T13:44:07+00:00"
                  }
                ]
              },
              {
                "linkId": "UserEmail",
                "answer": [
                  {
                    "valueString": "USER_EMAIL"
                  }
                ]
              },
              {
                "linkId": "PerformerSDSJobRole",
                "answer": [
                  {
                    "valueString": "Specialist Nurse Practitioner"
                  }
                ]
              }
            ]
          }
        ],
        "extension": [
          {
            "url": "https://fhir.hl7.org.uk/StructureDefinition/Extension-UKCore-VaccinationProcedure",
            "valueCodeableConcept": {
              "coding": [
                {
                  "system": "http://snomed.info/sct",
                  "code": "1324681000000101",
                  "display": "Administration of first dose of severe acute respiratory syndrome coronavirus 2 vaccine (procedure)"
                }
              ]
            }
          }
        ],
        "identifier": [
          {
            "system": "https://supplierABC/identifiers/vacc",
            "value": "278fcaa6-d33b-4c30-903b-1080528c10fc"
          }
        ],
        "status": "not-done",
        "vaccineCode": {
          "coding": [
            {
              "system": "http://snomed.info/sct",
              "code": "39114911000001105",
              "display": "COVID-19 Vaccine Vaxzevria (ChAdOx1 S [recombinant]) not less than 2.5x100,000,000 infectious units/0.5ml dose suspension for injection multidose vials (AstraZeneca UK Ltd) (product)"
            }
          ]
        },
        "patient": {
          "reference": "#Pat1"
        },
        "occurrenceDateTime": "2021-02-07T13:28:17.271000+00:00",
        "recorded": "2021-02-07",
        "primarySource": "true",
        "reportOrigin": {
          "text": "X99999"
        },
        "location": {
          "identifier": {
            "system": "https://fhir.nhs.uk/Id/ods-organization-code",
            "value": "X99999"
          }
        },
        "manufacturer": {
          "display": "AstraZeneca Ltd"
        },
        "lotNumber": "4120Z001",
        "expirationDate": "2021-07-02",
        "site": {
          "coding": [
            {
              "system": "http://snomed.info/sct",
              "code": "368208006",
              "display": "Left upper arm structure (body structure)"
            }
          ]
        },
        "route": {
          "coding": [
            {
              "system": "http://snomed.info/sct",
              "code": "78421000",
              "display": "Intramuscular route (qualifier value)"
            }
          ]
        },
        "doseQuantity": {
          "value": 0.5,
          "unit": "milliliter",
          "system": "http://unitsofmeasure.org",
          "code": "ml"
        },
        "performer": [
          {
            "actor": {
              "reference": "#Pract1"
            }
          },
          {
            "actor": {
              "type": "Organization",
              "identifier": {
                "system": "https://fhir.hl7.org.uk/Id/urn-school-number",
                "value": "B0C4P"
              },
              "display": "Acme Healthcare"
            }
          }
        ],
        "reasonCode": [
          {
            "coding": [
              {
                "system": "http://snomed.info/sct",
                "code": "443684005",
                "display": "Disease outbreak (event)"
              }
            ]
          }
        ],
        "protocolApplied": [
          {
            "doseNumberPositiveInt": 1
          }
        ]
      },
      "search": {
        "mode": "match"
      }
    },
    {
      "fullUrl": "urn:uuid:ff09e9b5-7091-45b4-bef1-e6728aeacd86",
      "resource": {
        "resourceType": "Immunization",
        "id": "ff09e9b5-7091-45b4-bef1-e6728aeacd86",
        "contained": [
          {
            "resourceType": "Practitioner",
            "id": "Pract1",
            "identifier": [
              {
                "system": "https://fhir.hl7.org.uk/Id/nmc-number",
                "value": "99A9999A"
              }
            ],
            "name": [
              {
                "family": "Nightingale",
                "given": ["Florence"]
              }
            ]
          },
          {
            "resourceType": "Patient",
            "id": "Pat1",
            "identifier": [
              {
                "extension": [
                  {
                    "url": "https://fhir.hl7.org.uk/StructureDefinition/Extension-UKCore-NHSNumberVerificationStatus",
                    "valueCodeableConcept": {
                      "coding": [
                        {
                          "system": "https://fhir.hl7.org.uk/CodeSystem/UKCore-NHSNumberVerificationStatusEngland",
                          "code": "01",
                          "display": "Number present and verified"
                        }
                      ]
                    }
                  }
                ],
                "system": "https://fhir.nhs.uk/Id/nhs-number",
                "value": "9693632109"
              }
            ],
            "name": [
              {
                "family": "Taylor",
                "given": ["Sarah"]
              }
            ],
            "gender": "unknown",
            "birthDate": "1965-02-28",
            "address": [
              {
                "postalCode": "EC1A 1BB"
              }
            ]
          },
          {
            "resourceType": "QuestionnaireResponse",
            "id": "QR1",
            "status": "completed",
            "item": [
              {
                "linkId": "Immunisation",
                "answer": [
                  {
                    "valueReference": {
                      "reference": "#"
                    }
                  }
                ]
              },
              {
                "linkId": "Consent",
                "answer": [
                  {
                    "valueCoding": {
                      "system": "http://snomed.info/sct",
                      "code": "310375005",
                      "display": "Immunization consent given (finding)"
                    }
                  }
                ]
              },
              {
                "linkId": "CareSetting",
                "answer": [
                  {
                    "valueCoding": {
                      "system": "http://snomed.info/sct",
                      "code": "413294000",
                      "display": "Community health services (qualifier value)"
                    }
                  }
                ]
              },
              {
                "linkId": "ReduceValidation",
                "answer": [
                  {
                    "valueBoolean": "false"
                  }
                ]
              },
              {
                "linkId": "LocalPatient",
                "answer": [
                  {
                    "valueReference": {
                      "identifier": {
                        "system": "https://ACME/identifiers/patient",
                        "value": "ACME-patient123456"
                      }
                    }
                  }
                ]
              },
              {
                "linkId": "IpAddress",
                "answer": [
                  {
                    "valueString": "IP_ADDRESS"
                  }
                ]
              },
              {
                "linkId": "UserId",
                "answer": [
                  {
                    "valueString": "USER_ID"
                  }
                ]
              },
              {
                "linkId": "UserName",
                "answer": [
                  {
                    "valueString": "USER_NAME"
                  }
                ]
              },
              {
                "linkId": "SubmittedTimeStamp",
                "answer": [
                  {
                    "valueDateTime": "2021-02-07T13:44:07+00:00"
                  }
                ]
              },
              {
                "linkId": "UserEmail",
                "answer": [
                  {
                    "valueString": "USER_EMAIL"
                  }
                ]
              },
              {
                "linkId": "PerformerSDSJobRole",
                "answer": [
                  {
                    "valueString": "Specialist Nurse Practitioner"
                  }
                ]
              }
            ]
          }
        ],
        "extension": [
          {
            "url": "https://fhir.hl7.org.uk/StructureDefinition/Extension-UKCore-VaccinationProcedure",
            "valueCodeableConcept": {
              "coding": [
                {
                  "system": "http://snomed.info/sct",
                  "code": "1324681000000101",
                  "display": "Administration of first dose of severe acute respiratory syndrome coronavirus 2 vaccine (procedure)"
                }
              ]
            }
          }
        ],
        "identifier": [
          {
            "system": "https://supplierABC/identifiers/vacc",
            "value": "65529e1a-be01-47e8-9896-bf59e9cc188a"
          }
        ],
        "status": "completed",
        "vaccineCode": {
          "coding": [
            {
              "system": "http://snomed.info/sct",
              "code": "39114911000001105",
              "display": "COVID-19 Vaccine Vaxzevria (ChAdOx1 S [recombinant]) not less than 2.5x100,000,000 infectious units/0.5ml dose suspension for injection multidose vials (AstraZeneca UK Ltd) (product)"
            }
          ]
        },
        "patient": {
          "reference": "#Pat1"
        },
        "occurrenceDateTime": "2021-02-07T13:28:17.271000+00:00",
        "recorded": "2021-02-07",
        "primarySource": "true",
        "reportOrigin": {
          "text": "X99999"
        },
        "location": {
          "identifier": {
            "system": "https://fhir.nhs.uk/Id/ods-organization-code",
            "value": "X99999"
          }
        },
        "manufacturer": {
          "display": "AstraZeneca Ltd"
        },
        "lotNumber": "4120Z001",
        "expirationDate": "2021-07-02",
        "site": {
          "coding": [
            {
              "system": "http://snomed.info/sct",
              "code": "368208006",
              "display": "Left upper arm structure (body structure)"
            }
          ]
        },
        "route": {
          "coding": [
            {
              "system": "http://snomed.info/sct",
              "code": "78421000",
              "display": "Intramuscular route (qualifier value)"
            }
          ]
        },
        "doseQuantity": {
          "value": 0.5,
          "unit": "milliliter",
          "system": "http://unitsofmeasure.org",
          "code": "ml"
        },
        "performer": [
          {
            "actor": {
              "reference": "#Pract1"
            }
          },
          {
            "actor": {
              "type": "Organization",
              "identifier": {
                "system": "https://fhir.hl7.org.uk/Id/urn-school-number",
                "value": "B0C4P"
              },
              "display": "Acme Healthcare"
            }
          }
        ],
        "reasonCode": [
          {
            "coding": [
              {
                "system": "http://snomed.info/sct",
                "code": "443684005",
                "display": "Disease outbreak (event)"
              }
            ]
          }
        ],
        "protocolApplied": [
          {
            "doseNumberPositiveInt": 1
          }
        ]
      },
      "search": {
        "mode": "match"
      }
    },
    {
      "resource": {
        "resourceType": "Patient",
        "id": "9693632109",
        "identifier": [
          {
            "extension": [
              {
                "url": "https://fhir.hl7.org.uk/StructureDefinition/Extension-UKCore-NHSNumberVerificationStatus",
                "valueCodeableConcept": {
                  "coding": [
                    {
                      "system": "https://fhir.hl7.org.uk/CodeSystem/UKCore-NHSNumberVerificationStatus",
                      "version": "1.0.0",
                      "code": "01",
                      "display": "Number present and verified"
                    }
                  ]
                }
              }
            ],
            "system": "https://fhir.nhs.uk/Id/nhs-number",
            "value": "9693632109"
          }
        ],
        "birthDate": "1946-06-23"
      },
      "search": {
        "mode": "include"
      }
    }
  ]
}
