{
    "resourceType": "Immunization",
    "contained": [
      {
          "resourceType": "Practitioner",
          "id": "Pract1",
          "identifier": [
              {
                  "system": "PERFORMING_PROFESSIONAL_BODY_REG_URI",
                  "value": "PERFORMING_PROFESSIONAL_BODY_REG_CODE",
              }
          ],
          "name": [
              {
                  "family": "PERFORMING_PROFESSIONAL_SURNAME",
                  "given": [
                      "PERFORMING_PROFESSIONAL_FORENAME"
                  ]
              }
          ]
      },
      {
          "resourceType": "Patient",
          "id" : "Pat1",
          "identifier": [
              {"extension":  [
                  {
                      "url": "https://fhir.hl7.org.uk/StructureDefinition/Extension-UKCore-NHSNumberVerificationStatus",
                      "valueCodeableConcept": {
                          "coding":  [
                              {
                                  "system": "https://fhir.hl7.org.uk/CodeSystem/UKCore-NHSNumberVerificationStatusEngland",
                                  "code": "NHS_NUMBER_STATUS_INDICATOR_CODE",
                                  "display": "NHS_NUMBER_STATUS_INDICATOR_DESCRIPTION"
                              }
                          ]
                      }
                  }
              ],
                  "system": "https://fhir.nhs.uk/Id/nhs-number",
                  "value": "NHS_NUMBER"
              }
          ],
          "name": [
              {
                  "family": "PERSON_SURNAME",
                  "given": [
                      "PERSON_SURNAME"
                  ]
              }
          ],
          "gender": "PERSON_GENDER_CODE",
          "birthDate": "PERSON_DOB",
          "address": [
              {
                  "postalCode": "PERSON_POSTCODE"
              }
          ]
      },
      {
          "resourceType": "QuestionnaireResponse",
          "id": "QR1",
          "status": "completed",
          "item": [
              {
                  "linkId": "Consent",
                  "answer": [
                      {
                        "valueCoding": {
                          "code": "CONSENT_FOR_TREATMENT_CODE",
                          "display": "CONSENT_FOR_TREATMENT_DESCRIPTION"
                        }
                      }
                  ]
              },
              {
                  "linkId": "CareSetting",
                  "answer": [
                      {
                        "valueCoding": {
                          "code": "CARE_SETTING_TYPE_CODE",
                          "display": "CARE_SETTING_TYPE_DESCRIPTION"
                        }
                      }
                  ]
              },
              {
                  "linkId": "ReduceValidation",
                  "answer": [
                      {
                        "valueBoolean": REDUCE_VALIDATION_CODE
                      }
                  ]
              },
              {
                  "linkId": "ReduceValidationReason",
                  "answer": [
                      {
                        "valueString": "REDUCE_VALIDATION_REASON"
                      }
                ]
              },
              {
                  "linkId": "LocalPatient",
                  "answer": [
                      {
                          "valueReference": {
                              "identifier": {
                                  "system": "LOCAL_PATIENT_URI",
                                  "value": "LOCAL_PATIENT_ID"
                              }
                          }
                      }
                  ]
              },
              {
                  "linkId": "IpAddress",
                  "answer": [
                      {
                        "valueString": "IP_ADDRESS"
                      }
                  ]
              },
              {
                  "linkId": "UserId",
                  "answer": [
                      {
                        "valueString": "USER_ID"
                      }
                  ]
              },
              {
                  "linkId": "UserName",
                  "answer": [
                      {
                        "valueString": "USER_NAME"
                      }
                  ]
              },
              {
                  "linkId": "SubmittedTimeStamp",
                  "answer": [
                      {
                          "valueDateTime": "SUBMITTED_TIMESTAMP"
                      }
                  ]
              },
              {
                  "linkId": "UserEmail",
                  "answer": [
                      {
                        "valueString": "USER_EMAIL"
                      }
                  ]
              },
              {
                  "linkId": "PerformerSDSJobRole",
                  "answer": [
                      {
                          "valueString": "SDS_JOB_ROLE_NAME"
                      }
                  ]
              }
          ]
      }
    ],
    "identifier": [
      {
        "system": "UNIQUE_ID_URI",
        "value": "UNIQUE_ID"
      }
    ],
    "status": "ACTION_FLAG or NOT_GIVEN",
    "statusReason": {
      "coding": [
          {
              "code": "REASON_NOT_GIVEN_CODE",
              "display": "REASON_NOT_GIVEN_TERM"
          }
      ]
    },
    "vaccineCode": {
      "coding": [
          {
              "system": "http://snomed.info/sct",
              "code": "VACCINE_PRODUCT_CODE",
              "display": "VACCINE_PRODUCT_TERM"
          }
      ]
    },
    "patient": {
      "reference" : "#Pat1"
    },
    "occurrenceDateTime": "DATE_AND_TIME",
    "recorded": "RECORDED_DATE",
    "primarySource": PRIMARY_SOURCE,
    "reportOrigin": {
      "text": "REPORT_ORIGIN"
    },
    "manufacturer": {
      "display": "VACCINATION_MANUFACTURER"
    },
    "lotNumber": "BATCH_NUMBER",
    "expirationDate": "EXPIRY_DATE",
    "site": {
      "coding": [
          {
              "system": "http://snomed.info/sct",
              "code": "SITE_OF_VACCINATION_CODE",
              "display": "SITE_OF_VACCINATION_TERM"
          }
      ]
    },
    "route": {
      "coding": [
          {
              "system": "http://snomed.info/sct",
              "code": "ROUTE_OF_VACCINATION_CODE",
              "display": "ROUTE_OF_VACCINATION_TERM"
          }
      ]
    },
    "doseQuantity": {
      "value": DOSE_AMOUNT,
      "unit": "DOSE_UNIT_TERM",
      "system": "http://unitsofmeasure.org",
      "code": "DOSE_UNIT_CODE"
    },
    "performer": [
      {
          "actor": {
              "reference" : "#Pract1"
          }
      },
      {
          "actor" : {
              "type" : "Organization",
              "identifier": {
                      "system": "SITE_CODE_TYPE_URI",
                      "value": "SITE_CODE"
                  },
              "display": "SITE_NAME"
          }
      }
    ],
    "reasonCode": [
      {
          "coding": [
              {
                "code": "INDICATION_CODE",
                "display": "INDICATION_TERM"
              }
          ]
      }
    ],
    "protocolApplied": [
      {
          "doseNumberPositiveInt": DOSE_SEQUENCE
      }
    ],
    "location": {
      "type": "Location",
      "identifier": {
          "value": "LOCATION_CODE",
          "system": "LOCATION_CODE_TYPE_URI"
      }
    },
    "extension": [
      {
          "url": "https://fhir.hl7.org.uk/StructureDefinition/Extension-UKCore-VaccinationProcedure",
          "valueCodeableConcept": {
              "coding": [
                  {
                      "system": "http://snomed.info/sct",
                      "code": "VACCINATION_PROCEDURE_CODE",
                      "display": "VACCINATION_PROCEDURE_TERM"
                  }
              ]
          }
      },
      {
          "url": "https://fhir.hl7.org.uk/StructureDefinition/Extension-UKCore-VaccinationSituation",
          "valueCodeableConcept": {
              "coding": [
                  {
                      "system": "http://snomed.info/sct",
                      "code": "VACCINATION_SITUATION_CODE",
                      "display": "VACCINATION_SITUATION_TERM"
                  }
              ]
          }
      }
    ]
  }
