{
  "resourceType": "Immunization",
  "id": "an-id",
  "contained": [
    {
      "resourceType": "Practitioner",
      "id": "Pract1",
      "identifier": [
        {
          "system": "https://fhir.hl7.org.uk/Id/nmc-number",
          "value": "99A9999A"
        }
      ]
    },
    {
      "resourceType": "Patient",
      "id": "Pat1",
      "identifier": [
        {
          "extension": [
            {
              "url": "https://fhir.hl7.org.uk/StructureDefinition/Extension-UKCore-NHSNumberVerificationStatus",
              "valueCodeableConcept": {
                "coding": [
                  {
                    "system": "https://fhir.hl7.org.uk/CodeSystem/UKCore-NHSNumberVerificationStatusEngland",
                    "code": "01",
                    "display": "Number present and verified"
                  }
                ]
              }
            }
          ],
          "system": "https://fhir.nhs.uk/Id/nhs-number",
          "value": "9990548609"
        }
      ],
      "name": [
        {
          "family": "Taylor",
          "given": ["Sarah"]
        }
      ],
      "gender": "unknown",
      "birthDate": "1965-02-28",
      "address": [
        {
          "postalCode": "EC1A 1BB"
        }
      ]
    },
    {
      "resourceType": "QuestionnaireResponse",
      "id": "QR1",
      "status": "completed",
      "item": [
        {
          "linkId": "Immunisation",
          "answer": [
            {
              "valueReference": {
                "reference": "#"
              }
            }
          ]
        },
        {
          "linkId": "Consent",
          "answer": [
            {
              "valueCoding": {
                "code": "310375005",
                "system": "http://snomed.info/sct",
                "display": "Immunization consent given (finding)"
              }
            }
          ]
        },
        {
          "linkId": "CareSetting",
          "answer": [
            {
              "valueCoding": {
                "code": "413294000",
                "system": "http://snomed.info/sct",
                "display": "Community health services (qualifier value)"
              }
            }
          ]
        },
        {
          "linkId": "ReduceValidation",
          "answer": [
            {
              "valueBoolean": false
            }
          ]
        },
        {
          "linkId": "LocalPatient",
          "answer": [
            {
              "valueReference": {
                "identifier": {
                  "system": "https://ACME/identifiers/patient",
                  "value": "ACME-patient123456"
                }
              }
            }
          ]
        }
      ]
    }
  ],
  "extension": [
    {
      "url": "https://fhir.hl7.org.uk/StructureDefinition/Extension-UKCore-VaccinationProcedure",
      "valueCodeableConcept": {
        "coding": [
          {
            "system": "http://snomed.info/sct",
            "code": "mockHPVcode1",
            "display": "Seasonal influenza vaccination (procedure)"
          }
        ]
      }
    }
  ],
  "identifier": [
    {
      "system": "https://supplierABC/identifiers/vacc",
      "value": "ACME-vacc123flu"
    }
  ],
  "status": "completed",
  "vaccineCode": {
    "coding": [
      {
        "system": "http://snomed.info/sct",
        "code": "39566211000001103",
        "display": "Supemtek Quadrivalent vaccine (recombinant) solution for injection 0.5ml pre-filled syringes (Sanofi) (product)"
      }
    ]
  },
  "patient": {
    "reference": "#Pat1"
  },
  "occurrenceDateTime": "2021-02-14T13:28:17.271+00:00",
  "recorded": "2021-02-14",
  "primarySource": true,
  "reportOrigin": {
    "text": "B0C4P"
  },
  "manufacturer": {
    "display": "Sanofi"
  },
  "location": {
    "identifier": {
      "value": "X99999",
      "system": "https://fhir.nhs.uk/Id/ods-organization-code"
    }
  },
  "lotNumber": "41925TJ61",
  "expirationDate": "2021-07-02",
  "site": {
    "coding": [
      {
        "system": "http://snomed.info/sct",
        "code": "368209003",
        "display": "Right upper arm structure (body structure)"
      }
    ]
  },
  "route": {
    "coding": [
      {
        "system": "http://snomed.info/sct",
        "code": "78421000",
        "display": "Intramuscular route (qualifier value)"
      }
    ]
  },
  "doseQuantity": {
    "value": 0.5,
    "unit": "milliliter",
    "system": "http://unitsofmeasure.org",
    "code": "ml"
  },
  "performer": [
    {
      "actor": {
        "reference": "#Pract1"
      }
    },
    {
      "actor": {
        "type": "Organization",
        "identifier": {
          "system": "https://fhir.nhs.uk/Id/ods-organization-code",
          "value": "B0C4P"
        },
        "display": "Acme Healthcare"
      }
    }
  ],
  "reasonCode": [
    {
      "coding": [
        {
          "code": "78648007",
          "system": "http://snomed.info/sct",
          "display": "At increased risk for infection (finding)"
        }
      ]
    }
  ],
  "protocolApplied": [
    {
      "targetDisease": [
        {
          "coding": [
            {
              "system": "http://snomed.info/sct",
              "code": "240532009",
              "display": "Human papillomavirus infection"
            }
          ]
        }
      ],
      "doseNumberPositiveInt": 1
    }
  ]
}

